timestamp;ax;ay;az;gx;gy;gz
161034;-0.0983;0.2077;0.4855;0.0305;-0.0229;-0.0229
161079;-0.0829;0.2180;0.4954;-0.0992;-0.0840;-0.1145
161124;-0.0977;0.2145;0.4868;-0.0076;0.1069;-0.0305
161169;-0.0932;0.2136;0.4811;-0.0687;-0.1908;-0.0305
161214;-0.0757;0.2139;0.4875;-0.0305;-0.3664;-0.0840
161259;-0.0867;0.2221;0.4880;-0.0992;0.0382;0.0305
161304;-0.0827;0.2070;0.4832;-0.0687;0.0000;0.1298
161349;-0.1011;0.2174;0.4850;-0.1450;-0.0458;0.1221
161394;-0.0808;0.2047;0.4889;-0.1221;-0.1374;0.1450
161439;-0.0882;0.1999;0.4754;-0.1145;0.2137;0.0229
161484;-0.0875;0.2004;0.4903;-0.0992;-0.2366;0.1145
161529;-0.0869;0.2088;0.4887;-0.0382;0.0687;0.0840
161574;-0.0920;0.2169;0.4779;-0.0229;-0.1756;0.1145
161619;-0.0925;0.1988;0.4962;-0.0458;-0.2061;0.0229
161664;-0.0862;0.2145;0.4832;-0.1069;0.1298;-0.0611
161709;-0.0941;0.2033;0.5004;-0.0611;-0.1832;-0.0534
161754;-0.0861;0.2141;0.4997;-0.0076;-0.3435;0.1298
161799;-0.0853;0.2147;0.4933;-0.0840;-0.0611;-0.0305
161844;-0.0866;0.2167;0.4858;-0.1603;-0.1603;-0.0534
161889;-0.0876;0.2049;0.4991;-0.0687;0.0916;0.0000
161934;-0.0742;0.2084;0.5019;-0.1069;0.0916;-0.0687
161979;-0.0892;0.1948;0.4927;-0.1069;0.2672;0.0763
162024;-0.0886;0.2167;0.4891;-0.0458;-0.1069;0.0687
162069;-0.0917;0.2025;0.4776;0.1069;0.1450;-0.0534
162114;-0.0916;0.2144;0.4973;0.2443;-0.0916;0.0305
162159;-0.0839;0.2140;0.5068;0.1985;-0.1603;-0.1145
162204;-0.0822;0.2102;0.4968;0.0305;0.3130;-0.0458
162249;-0.0867;0.2238;0.4996;-0.0534;0.0458;-0.0611
162294;-0.0833;0.2099;0.4998;-0.0992;0.3817;-0.0763
162339;-0.0826;0.2077;0.4894;-0.0687;-0.1527;-0.1069
162384;-0.0854;0.2058;0.5010;-0.0458;0.0611;-0.0153
162429;-0.0883;0.2087;0.4854;-0.0076;0.4198;0.0305
162474;-0.0842;0.2174;0.4792;0.0000;-0.0763;0.1298
162519;-0.0862;0.2134;0.4980;0.2672;-0.1832;0.1756
162564;-0.0728;0.2149;0.4898;0.1298;0.4046;0.0000
162609;-0.0909;0.2142;0.4972;-0.0229;0.2366;-0.0840
162654;-0.0789;0.2151;0.4950;-0.0458;-0.0229;0.0534
162699;-0.0833;0.2064;0.4994;0.0916;0.1450;-0.1069
162744;-0.0911;0.2105;0.4980;-0.0076;0.2519;0.1069
162789;-0.0877;0.2187;0.4899;-0.0687;-0.1603;0.0229
162834;-0.0884;0.2138;0.4800;0.0000;0.2595;-0.0687
162879;-0.0942;0.2123;0.4914;0.1145;-0.1069;-0.1145
162924;-0.0877;0.2211;0.4809;-0.0534;-0.2214;-0.2214
162969;-0.0798;0.1995;0.4798;-0.0687;0.0992;-0.3282
163014;-0.0909;0.2031;0.4910;0.1298;-0.1985;-0.0076
163059;-0.0784;0.2253;0.4939;0.2977;-0.3588;-0.0153
163104;-0.0862;0.2242;0.5046;0.1298;-0.1603;-0.2061
163149;-0.0865;0.2207;0.4797;-0.0382;-0.5954;0.0153
163194;-0.0679;0.2195;0.5051;-0.1603;-0.5038;-0.1832
163239;-0.0690;0.2138;0.4770;-0.3206;0.6870;-0.0611
163284;-0.0793;0.2124;0.4812;-0.2214;-0.2748;-0.0153
163329;-0.0473;0.2069;0.4966;-0.2366;0.0229;-0.0611
163374;-0.0792;0.2077;0.4939;-0.2214;15.115;0.1069
163419;-0.1024;0.2244;0.4668;-0.0687;0.2061;0.1527
163464;-0.0946;0.2102;0.4880;-0.0229;-0.4046;0.0992
163509;-0.0777;0.2055;0.4888;-0.0534;0.5649;0.0153
163554;-0.0998;0.1956;0.4938;0.0458;0.2290;0.0763
163599;-0.0890;0.2130;0.4922;0.0687;0.0763;0.1832
163644;-0.0906;0.2145;0.4921;0.1145;0.2595;-0.0382
163689;-0.0854;0.2287;0.4911;0.0763;-0.0076;-0.0840
163734;-0.0812;0.2017;0.5059;0.0687;-0.1527;-0.1603
163779;-0.0804;0.2067;0.4975;-0.0534;0.0000;-0.1069
163824;-0.0848;0.2117;0.4961;-0.1145;0.0458;0.0382
163869;-0.0889;0.2100;0.4964;-0.1221;-0.0534;-0.1450
163914;-0.0918;0.2072;0.4911;-0.1603;0.0305;-0.0611
163959;-0.0828;0.2138;0.4958;-0.1145;-0.1221;-0.1069
164004;-0.0966;0.2166;0.4791;-0.1756;0.4122;-0.0687
164049;-0.0940;0.2106;0.4908;-0.0992;-0.0840;-0.1145
164094;-0.0754;0.2126;0.4954;-0.1145;-0.1527;-0.1679
164139;-0.0812;0.2059;0.4872;-0.0992;0.1832;-0.0076
164184;-0.0809;0.2158;0.5023;-0.0534;-0.0458;-0.0458
164229;-0.0845;0.2039;0.5039;-0.1069;-0.0229;-0.0687
164274;-0.0760;0.2019;0.4948;-0.1374;-0.1298;0.0458
164319;-0.0875;0.2080;0.4915;-0.0153;0.0916;0.0992
164364;-0.0861;0.2090;0.4958;-0.1145;0.0687;0.1374
164409;-0.0855;0.2142;0.5035;-0.0840;-0.0153;0.0916
164454;-0.0905;0.2057;0.4963;-0.0153;0.0687;0.0458
164499;-0.0869;0.2087;0.4963;0.0687;0.2824;-0.1069
164544;-0.0918;0.2052;0.4894;0.0229;0.1221;0.0000
164589;-0.0806;0.2104;0.4939;0.1069;-0.1450;0.0153
164634;-0.0907;0.2072;0.4999;0.0076;-0.1374;-0.0611
164679;-0.0759;0.2118;0.5062;-0.0153;0.1603;-0.0382
164724;-0.0824;0.2121;0.5112;0.0076;-0.0229;-0.1756
164769;-0.0925;0.2052;0.5030;0.0153;0.0382;-0.0534
164814;-0.0862;0.2178;0.5015;-0.0763;-0.0153;-0.0382
164859;-0.0922;0.2139;0.4946;-0.1527;0.1679;-0.1374
164904;-0.0912;0.1971;0.4971;-0.0840;0.0763;-0.0840
164949;-0.0822;0.2127;0.5026;0.0076;-0.2443;-0.0229
164994;-0.0809;0.2125;0.5049;0.0153;-0.0153;-0.1374
165039;-0.0687;0.2097;0.4986;0.0611;0.2595;-0.1527
165084;-0.0882;0.2131;0.5009;0.0611;0.2443;-0.0916
165129;-0.0835;0.2088;0.4933;-0.0229;0.1145;-0.1221
165174;-0.0829;0.2073;0.5002;0.0000;0.1679;0.0916
165219;-0.0822;0.2077;0.4950;0.0229;-0.0687;-0.0229
165264;-0.0958;0.2054;0.4879;-0.0763;0.2824;-0.0763
165309;-0.0924;0.2004;0.4952;0.0840;0.3588;0.0382
165354;-0.0945;0.2108;0.4908;0.0076;0.3282;-0.1069
165399;-0.0902;0.2131;0.5035;0.0611;0.0534;-0.0229
165444;-0.0903;0.2097;0.5020;0.0687;0.2366;-0.0687
165489;-0.0963;0.2152;0.5019;0.1374;0.2977;-0.0611
165534;-0.0891;0.2083;0.4976;0.0687;-0.3130;-0.1374
165579;-0.0802;0.2148;0.5053;-0.0687;0.1298;-0.0992
165624;-0.0926;0.2044;0.4912;-0.0076;0.1603;-0.0763
165669;-0.0804;0.2098;0.5046;-0.0840;-0.1527;-0.0916
165714;-0.0729;0.2187;0.4876;-0.0992;0.1756;-0.0229
165759;-0.0894;0.2070;0.5083;-0.0840;0.0229;-0.0382
165804;-0.0720;0.2171;0.4989;-0.1145;0.1450;0.0611
165849;-0.0925;0.2011;0.4940;0.0076;0.2366;0.0305
165894;-0.0933;0.2172;0.4859;-0.0458;0.1679;0.1298
165939;-0.0868;0.2061;0.5025;-0.0076;-0.0840;0.0000
165984;-0.0891;0.2097;0.4977;-0.0534;0.3206;0.0992
166029;-0.0970;0.2028;0.4892;-0.0763;-0.1221;-0.0534
166074;-0.0910;0.2001;0.4963;-0.0611;0.0458;0.1069
166119;-0.0937;0.2098;0.5041;0.0458;0.0458;-0.0153
166164;-0.0879;0.2136;0.5043;-0.0687;-0.0840;-0.0611
166209;-0.0767;0.2051;0.4969;-0.1069;0.0992;-0.0763
166254;-0.0926;0.2083;0.4863;-0.0763;0.1069;-0.1527
166299;-0.0851;0.2057;0.5076;-0.0611;-0.0534;-0.0229
166344;-0.0733;0.2081;0.4874;0.0382;0.2443;-0.0382
166389;-0.0942;0.1977;0.4941;0.0840;0.0534;-0.0382
166434;-0.0787;0.2114;0.4971;0.0840;-0.2901;0.0076
166479;-0.0793;0.2059;0.5004;0.0534;0.1298;-0.0916
166524;-0.0939;0.2091;0.5000;0.0840;0.1450;-0.0611
166569;-0.0911;0.2111;0.4918;0.0611;0.0458;-0.0229
166614;-0.0975;0.2120;0.4938;0.0763;0.1832;-0.0153
166659;-0.0797;0.2094;0.4965;0.0458;-0.2748;-0.0382
166704;-0.0849;0.2179;0.5025;-0.0534;0.1221;-0.0840
166749;-0.0884;0.2202;0.4819;0.0229;0.2595;-0.0153
166794;-0.0855;0.2222;0.4876;-0.1679;-0.2824;-0.0305
166839;-0.0845;0.2076;0.4931;-0.0840;0.1298;-0.0076
166884;-0.0886;0.2045;0.4915;0.0382;0.1527;-0.0229
166929;-0.0864;0.2172;0.4895;0.0153;-0.1756;-0.0076
166974;-0.0887;0.2088;0.4972;0.0229;0.1908;0.0305
167019;-0.0920;0.2050;0.4922;0.0229;0.0153;-0.0458
167064;-0.0931;0.2043;0.4969;0.2366;-0.0229;0.0382
167109;-0.0757;0.2037;0.4794;-0.0458;-0.1069;-0.0305
167154;-0.1024;0.2131;0.4805;-0.0076;0.3588;-0.1069
167199;-0.0823;0.2092;0.4849;-0.1374;-0.6489;-0.2443
167244;-0.0753;0.2105;0.4947;-0.0534;-0.7481;-0.5496
167289;-0.0844;0.2204;0.4842;-0.2595;0.0382;-0.6107
167334;-0.1011;0.1922;0.4963;-0.5496;0.5725;-0.5115
167379;-0.1102;0.1739;0.5011;-0.5573;0.9542;-0.5038
167424;-0.1223;0.2057;0.4864;-0.3435;13.359;-0.4809
167469;-0.1158;0.2075;0.4704;-0.2290;10.534;-0.6947
167514;-0.1343;0.2087;0.4784;-0.2595;0.8397;-0.8397
167559;-0.1373;0.2203;0.4665;-0.1527;0.6870;-0.9160
167604;-0.1361;0.2158;0.4767;-0.0992;0.2901;-12.137
167649;-0.1352;0.2084;0.4874;0.1908;-0.2824;-0.8092
167694;-0.1082;0.2065;0.5082;0.2824;-0.4275;-0.6107
167739;-0.1176;0.2205;0.5087;0.2137;-0.5725;-0.2519
167784;-0.1090;0.3063;0.5025;0.6336;-0.4351;0.7634
167829;-0.0952;0.2796;0.4999;0.4427;0.7099;0.0153
167874;-0.1168;0.2570;0.4809;0.3664;11.221;0.1298
167919;-0.0768;0.2352;0.4867;0.5344;-12.443;0.0153
167964;-0.0790;0.1282;0.5312;0.3969;0.1756;0.2901
168009;-0.1083;0.1405;0.4996;0.4198;0.5573;0.1374
168054;-0.1151;0.1708;0.4772;0.7405;-0.0305;-0.1374
168099;-0.1143;0.1774;0.4780;0.7939;-0.8626;0.1145
168144;-0.0753;0.2125;0.4762;0.8397;12.977;-0.2519
168189;-0.1390;0.2028;0.4510;0.8931;27.634;-0.5420
168234;-0.1217;0.2091;0.4504;0.7099;0.5496;-0.7099
168279;-0.0997;0.1926;0.4561;0.2824;10.458;-11.374
168324;-0.1116;0.2144;0.4544;0.1069;16.794;-12.061
168369;-0.1396;0.2282;0.4016;0.2595;0.8550;-15.267
168414;-0.1588;0.2001;0.3616;14.351;-0.8702;-12.824
168459;-0.1227;0.2176;0.4017;22.443;-53.130;-17.786
168504;-0.1361;0.2494;0.4316;22.977;-12.061;-12.137
168549;-0.1879;0.1331;0.4294;20.305;-0.3130;-15.267
168594;-0.2279;0.1641;0.4540;20.076;-20.611;-0.5573
168639;-0.2161;0.2497;0.5264;18.931;-0.2901;-0.0458
168684;-0.2970;0.1995;0.4949;28.168;33.740;11.603
168729;-0.2764;0.2290;0.3284;30.687;-39.466;40.611
168774;-0.1489;0.2845;0.3697;22.748;-85.725;17.023
168819;-0.0959;0.3464;0.4053;0.8626;29.313;0.5267
168864;-0.1943;0.2706;0.3224;-0.3282;75.344;-14.046
168909;-0.2827;0.1870;0.3285;-0.8244;25.954;-15.725
168954;-0.2162;0.2052;0.3539;-10.916;-31.374;-0.7328
168999;-0.1680;0.2044;0.4023;-17.710;-11.603;-0.8321
169044;-0.2095;0.2332;0.3917;-24.580;40.916;-0.6336
169089;-0.2590;0.1790;0.3609;-32.366;23.511;-0.4962
169134;-0.2245;0.1543;0.4120;-38.168;13.053;0.0534
169179;-0.2460;0.3893;0.3970;-31.603;55.191;14.122
169224;-0.2084;0.1488;0.4205;-20.305;40.763;0.9771
169269;-0.2040;0.0557;0.4343;0.1069;39.237;0.3664
169314;-0.3044;0.1874;0.4356;16.336;29.847;20.611
169359;-0.2197;0.3228;0.3992;18.321;-55.420;29.160
169404;-0.0916;0.2131;0.5015;12.214;-26.031;12.137
169449;-0.1436;0.1895;0.4402;0.4733;40.076;0.3206
169494;-0.1780;0.2208;0.3973;-0.4580;-0.8168;-0.3435
169539;-0.0982;0.2566;0.4521;-0.8550;-30.076;-0.4733
169584;-0.0717;0.2314;0.4469;-0.6336;0.1221;-0.7786
169629;-0.0914;0.1827;0.4274;-0.3893;0.9771;-0.6183
169674;-0.1117;0.1829;0.3959;-0.5038;-0.5725;-0.1069
169719;-0.0805;0.2281;0.4218;-0.5496;-0.9466;-0.4046
169764;-0.1234;0.2417;0.4206;-0.3817;0.8550;-0.4656
169809;-0.1486;0.2116;0.4277;-0.1450;0.3206;0.0611
169854;-0.1544;0.2033;0.4410;0.1298;-0.5496;0.4885
169899;-0.1632;0.1879;0.4606;0.3740;-0.2519;10.916
169944;-0.1400;0.2156;0.4405;0.3359;-0.8015;0.8473
169989;-0.1338;0.2275;0.4313;-0.1679;-0.6718;0.2595
170034;-0.1365;0.2299;0.4310;-0.5954;-0.5420;-0.5115
170079;-0.1337;0.2233;0.4298;-0.6641;-0.4733;-0.7328
170124;-0.1364;0.2084;0.4402;-0.6565;-0.5878;-0.8168
170169;-0.1439;0.2070;0.4291;-0.4809;-0.6641;-0.5038
170214;-0.1334;0.2093;0.4366;-0.3130;-0.8168;-0.4122
170259;-0.1364;0.2144;0.4441;-0.2748;-0.2748;-0.2824
170304;-0.1381;0.2104;0.4374;-0.1450;-0.7863;-0.2748
170349;-0.1353;0.2227;0.4427;0.0000;-0.4046;-0.2137
170394;-0.1553;0.2202;0.4435;0.0305;-0.6718;-0.0687
170439;-0.1348;0.2027;0.4711;-0.0611;-0.6565;-0.1908
170484;-0.1522;0.2020;0.4542;-0.1985;0.0305;-0.2137
170529;-0.1696;0.2264;0.4486;-0.2137;-0.4504;0.0687
170574;-0.1510;0.2117;0.4624;-0.3817;-0.3282;-0.2748
170619;-0.1688;0.2117;0.4513;-0.3511;0.4962;-0.3282
170664;-0.1600;0.2111;0.4425;-0.2290;-0.0153;-0.2672
170709;-0.1652;0.2080;0.4486;-0.0992;0.1908;-0.2672
170754;-0.1659;0.2160;0.4455;-0.0076;-0.1679;-0.1756
170799;-0.1523;0.2058;0.4549;0.0763;0.1450;-0.1832
170844;-0.1606;0.2166;0.4675;0.1450;0.6412;-0.0611
170889;-0.1632;0.2062;0.4772;-0.0763;-0.1069;0.0611
170934;-0.1505;0.2190;0.4650;-0.0992;0.2672;-0.0305
170979;-0.1688;0.2118;0.4609;-0.1985;0.7252;-0.0305
171024;-0.1664;0.2136;0.4758;-0.2137;0.0000;0.0229
171069;-0.1683;0.2182;0.4718;-0.1832;-0.0382;-0.1679
171114;-0.1694;0.2117;0.4660;-0.1756;0.2595;-0.0076
171159;-0.1519;0.2095;0.4596;-0.1221;-0.1145;-0.0534
171204;-0.1680;0.2153;0.4670;0.0076;-0.0534;-0.1527
171249;-0.1533;0.2025;0.4664;-0.0763;-0.0916;-0.0153
171294;-0.1451;0.2147;0.4603;-0.0534;-0.1527;-0.1832
171339;-0.1598;0.2110;0.4717;-0.0687;0.3282;-0.1985
171384;-0.1667;0.2074;0.4620;0.0229;-0.2824;0.1298
171429;-0.1522;0.2141;0.4728;0.1985;0.1527;-0.0153
171474;-0.1627;0.2072;0.4591;0.0992;0.6870;-0.0153
171519;-0.1794;0.2076;0.4624;0.1145;-0.1069;0.1527
171564;-0.1592;0.2135;0.4679;0.1145;-0.1756;0.1374
171609;-0.1738;0.2154;0.4604;0.0000;0.9237;-0.0229
171654;-0.1716;0.2100;0.4671;-0.0534;-0.3511;0.0153
171699;-0.1559;0.2152;0.4789;-0.1298;-0.3359;-0.1985
171744;-0.1642;0.2137;0.4667;-0.1756;10.382;-0.4198
171789;-0.1794;0.2025;0.4642;-0.1527;0.0229;-0.4656
171834;-0.1650;0.2238;0.4678;-0.0076;-0.5267;-0.1374
171879;-0.1631;0.2108;0.4769;0.0458;-0.0840;-0.3435
171924;-0.1726;0.2130;0.4588;-0.0382;0.0534;-0.2290
171969;-0.1583;0.2144;0.4623;0.0153;-0.5496;-0.1756
172014;-0.1487;0.2116;0.4690;-0.0076;-0.3053;-0.0305
172059;-0.1695;0.2149;0.4773;-0.0076;0.2748;-0.0687
172104;-0.1663;0.2104;0.4547;0.0458;-0.1756;-0.0153
172149;-0.1650;0.2067;0.4692;0.0534;-0.1985;0.1908
172194;-0.1619;0.2126;0.4609;0.0992;-0.0076;0.0382
172239;-0.1739;0.2086;0.4556;-0.0611;0.2366;0.1450
172284;-0.1700;0.2133;0.4738;-0.0153;-0.0382;0.0763
172329;-0.1679;0.2094;0.4662;-0.0305;0.2443;0.0305
172374;-0.1729;0.2063;0.4476;-0.0229;0.4275;0.0687
172419;-0.1801;0.2139;0.4605;-0.0611;0.0840;-0.1374
172464;-0.1732;0.2053;0.4579;0.0229;0.0916;-0.0305
172509;-0.1815;0.2135;0.4689;-0.0076;0.1908;-0.1527
172554;-0.1724;0.2068;0.4717;-0.0305;0.1450;-0.2672
172599;-0.1884;0.2164;0.4692;-0.0611;0.1069;-0.1679
172644;-0.1584;0.2111;0.4718;0.0305;-0.2137;-0.1374
172689;-0.1577;0.1999;0.4690;0.1069;0.1756;-0.0992
172734;-0.1841;0.2082;0.4634;0.0000;0.0916;0.0305
172779;-0.1653;0.2067;0.4678;0.0611;-0.1756;0.0840
172824;-0.1743;0.2120;0.4644;0.0382;0.3435;-0.0458
172869;-0.1720;0.2155;0.4550;0.0611;-0.0305;0.1221
172914;-0.1703;0.2149;0.4632;0.0840;-0.1603;0.0382
172959;-0.1797;0.2225;0.4612;0.0840;0.5954;0.0458
173004;-0.1782;0.2044;0.4584;0.1527;-0.2519;-0.0153
173049;-0.1759;0.2085;0.4594;0.0687;0.0153;0.0916
173094;-0.1702;0.2114;0.4594;-0.0305;0.0153;-0.0076
173139;-0.1739;0.2053;0.4512;-0.0305;0.2672;-0.0458
173184;-0.1754;0.2059;0.4709;-0.0458;0.0763;-0.0076
173229;-0.1577;0.2202;0.4515;0.0382;-0.2137;0.0229
173274;-0.1637;0.2144;0.4584;0.0000;0.4275;-0.0229
173319;-0.1663;0.2152;0.4510;0.0458;-0.1985;-0.0382
173364;-0.1646;0.2094;0.4685;0.0916;0.1908;0.1069
173409;-0.1745;0.2139;0.4681;0.0153;0.2672;-0.0153
173454;-0.1707;0.2232;0.4562;-0.0611;-0.1069;0.0687
173499;-0.1589;0.2149;0.4710;-0.0458;-0.0687;-0.0305
173544;-0.1572;0.2065;0.4552;-0.1145;0.9084;-0.2443
173589;-0.1716;0.1977;0.4526;0.0076;0.4351;-0.1298
173634;-0.1777;0.2091;0.4477;0.1145;-0.1527;0.1985
173679;-0.1745;0.2172;0.4607;0.0611;-0.1527;0.0076
173724;-0.1732;0.2100;0.4614;0.0840;0.0305;0.0000
173769;-0.1672;0.2117;0.4606;0.0763;0.0763;0.0534
173814;-0.1732;0.2124;0.4551;0.1221;0.1603;0.2061
173859;-0.1726;0.2168;0.4603;0.1145;-0.0153;0.0687
173904;-0.1596;0.2095;0.4554;0.1756;0.1145;0.0153
173949;-0.1808;0.2145;0.4563;0.0611;0.1221;0.0458
173994;-0.1608;0.2166;0.4469;0.1298;-0.1527;-0.0153
174039;-0.1605;0.2066;0.4498;0.1679;-0.1908;-0.0534
174084;-0.1578;0.2078;0.4505;-0.0687;-0.1756;-0.0916
174129;-0.1639;0.2167;0.4501;-0.1985;0.3511;-0.2748
174174;-0.1659;0.2111;0.4499;-0.1832;0.2061;-0.2061
174219;-0.1664;0.2084;0.4429;-0.1298;-0.1985;-0.1298
174264;-0.1612;0.2095;0.4537;-0.1069;0.2214;-0.0458
174309;-0.1672;0.2149;0.4396;0.0000;0.1527;-0.0382
174354;-0.1697;0.2070;0.4396;0.1298;-0.1603;-0.0916
174399;-0.1691;0.2087;0.4507;0.0763;0.0916;-0.0687
174444;-0.1614;0.2092;0.4531;0.0458;-0.1298;-0.1069
174489;-0.1678;0.2087;0.4452;0.1221;0.0687;-0.0840
174534;-0.1561;0.2135;0.4442;0.0840;-0.1756;-0.0229
174579;-0.1628;0.2091;0.4517;0.0534;0.0076;-0.0229
174624;-0.1747;0.2183;0.4521;0.0382;0.0687;-0.1298
174669;-0.1776;0.2332;0.4483;-0.0153;0.0000;-0.0229
174714;-0.1455;0.2153;0.4437;-0.2366;0.4351;-0.4122
174759;-0.1727;0.2051;0.4309;-0.4351;18.168;-0.2137
174804;-0.2263;0.1973;0.4238;-0.3130;0.2595;0.2443
174849;-0.1569;0.2266;0.4200;-0.5725;-36.412;0.1603
174894;-0.1455;0.2253;0.4584;-0.6336;-0.0534;-0.0305
174939;-0.1716;0.2237;0.4195;-0.8702;13.435;-0.7710
174984;-0.1935;0.1953;0.4315;-10.687;16.031;-13.130
175029;-0.1988;0.1969;0.4534;-0.5573;38.702;-14.504
175074;-0.2617;0.1660;0.4557;0.2443;26.183;-0.6870
175119;-0.2170;0.1650;0.4645;0.7634;-0.2366;0.1069
175164;-0.1697;0.1751;0.4945;11.450;22.519;0.4809
175209;-0.2078;0.2051;0.4722;11.756;39.160;0.3206
175254;-0.2093;0.2338;0.4590;0.5649;21.527;0.2137
175299;-0.2061;0.2482;0.4584;0.1221;26.336;0.2290
175344;-0.1802;0.2297;0.4372;-0.0382;32.137;0.0534
175389;-0.1980;0.2180;0.4488;0.0076;41.985;-0.2214
175434;-0.1926;0.2233;0.4271;-0.1450;34.275;-0.2214
175479;-0.2067;0.2217;0.4228;-0.2824;28.550;-0.3359
175524;-0.2057;0.2404;0.4389;-0.2672;25.649;-0.2061
175569;-0.2015;0.2352;0.4319;-0.0840;21.832;-0.3130
175614;-0.2143;0.1925;0.4275;0.2672;12.214;-0.2061
175659;-0.2005;0.1947;0.4407;0.3359;-0.8168;0.0534
175704;-0.1861;0.1827;0.4664;0.6718;-0.1908;0.2595
175749;-0.2077;0.1990;0.4534;0.9160;0.2443;0.7481
175794;-0.2047;0.2030;0.4419;0.6794;-0.6718;11.756
175839;-0.1788;0.2157;0.4535;0.1985;-0.1298;0.9542
175884;-0.1999;0.2170;0.4317;-0.1450;13.664;0.4275
175929;-0.2211;0.2099;0.4128;-0.1298;0.7710;0.2977
175974;-0.2059;0.2077;0.4209;-0.1450;-0.2595;0.3435
176019;-0.1995;0.1976;0.4231;-0.2366;0.3511;0.1069
176064;-0.2221;0.2175;0.4158;-0.3435;0.4580;-0.2061
176109;-0.1857;0.2230;0.4097;-0.5496;-0.4885;-0.6336
176154;-0.1854;0.2072;0.4256;-0.6794;-0.1985;-10.000
176199;-0.1982;0.2084;0.4245;-0.6718;0.1832;-10.000
176244;-0.1968;0.2039;0.4283;-0.5649;0.0229;-0.8550
176289;-0.2061;0.2073;0.4211;-0.4046;-0.2137;-0.6489
176334;-0.1902;0.2045;0.4371;-0.1527;-0.0305;-0.4198
176379;-0.1982;0.2047;0.4361;-0.0992;0.0458;-0.2519
176424;-0.1994;0.2278;0.4283;-0.1450;0.0305;0.0611
176469;-0.1815;0.2074;0.4324;-0.1374;0.0611;0.1756
176514;-0.2039;0.2051;0.4349;0.0916;0.4962;0.2214
176559;-0.2099;0.2117;0.4358;0.1069;0.1374;0.3359
176604;-0.2068;0.2041;0.4356;0.3588;0.1298;0.2901
176649;-0.2124;0.2128;0.4366;0.4504;0.3282;0.2824
176694;-0.2108;0.2050;0.4344;0.3740;-0.2443;0.2061
176739;-0.2017;0.2153;0.4455;0.3053;-0.3359;0.0534
176784;-0.2057;0.2107;0.4397;0.2290;-0.1145;-0.0458
176829;-0.2144;0.1928;0.4397;0.1985;-0.6183;0.0076
176874;-0.1885;0.2026;0.4531;-0.0458;-0.8550;-0.0076
176919;-0.2051;0.2097;0.4485;0.0000;-0.2824;-0.2290
176964;-0.1951;0.2054;0.4439;-0.0458;-10.229;-0.0611
177009;-0.1807;0.1958;0.4707;-0.2595;-0.9008;0.2137
177054;-0.1771;0.1997;0.4617;-0.4504;0.5725;0.2748
177099;-0.1926;0.1571;0.4568;-0.4198;13.053;-0.1679
177144;-0.2200;0.1739;0.4269;-0.0611;-0.3053;-0.1679
177189;-0.2091;0.2384;0.4227;-0.1298;-37.557;-0.3282
177234;-0.1722;0.2726;0.4541;-0.3664;-20.534;-0.4580
177279;-0.2043;0.2593;0.4317;-0.1374;-0.2214;-10.992
177324;-0.2205;0.2204;0.4310;-0.3359;-12.748;-0.8092
177369;-0.1932;0.1711;0.4718;-0.4046;-0.3130;-0.7786
177414;-0.2385;0.1643;0.4598;0.0458;11.145;-10.000
177459;-0.2826;0.2531;0.4148;0.2366;-31.527;-0.0916
177504;-0.1906;0.2380;0.4866;-0.0382;-48.931;-0.2595
177549;-0.1956;0.2292;0.4786;0.0229;0.1679;0.1374
177594;-0.2540;0.1991;0.4469;0.0000;-10.305;0.0611
177639;-0.2534;0.1631;0.4458;-0.0229;-31.603;11.145
177684;-0.1982;0.1847;0.4726;-0.1756;-21.069;10.382
177729;-0.2135;0.2053;0.4602;-0.1221;-0.0763;0.7023
177774;-0.2291;0.2415;0.4551;-0.1374;-0.4122;0.5725
177819;-0.2054;0.2619;0.4602;-0.3664;-15.038;0.0840
177864;-0.1812;0.2904;0.4754;-0.9542;-0.7405;-0.6870
177909;-0.1688;0.1879;0.5025;-17.710;-0.4351;-20.229
177954;-0.2126;0.1249;0.5106;-16.183;0.1527;-21.756
177999;-0.2418;0.0863;0.4968;-10.687;-28.092;-12.137
178044;-0.2117;0.2044;0.5015;-0.3588;-25.725;0.3817
178089;-0.2007;0.1683;0.4743;0.4275;13.359;0.3282
178134;-0.2977;0.1569;0.4551;13.130;-14.275;0.2901
178179;-0.2266;0.2558;0.4704;12.519;-55.496;11.527
178224;-0.1376;0.2556;0.4980;0.0992;-16.870;0.9389
178269;-0.1688;0.2027;0.4816;-0.2443;38.779;0.2901
178314;-0.2259;0.1951;0.4515;0.1908;27.176;-0.4504
178359;-0.2544;0.2069;0.4574;0.5649;-0.8321;0.0076
178404;-0.1877;0.2050;0.4806;0.9771;-25.878;-0.1985
178449;-0.1924;0.1932;0.5053;0.8473;-13.664;-0.3969
178494;-0.1995;0.2168;0.4916;0.4046;-0.0305;-0.0763
178539;-0.2087;0.2327;0.4799;0.3588;0.4198;0.0458
178584;-0.2136;0.2174;0.4565;0.2672;0.5878;-0.1145
178629;-0.2298;0.1871;0.4659;0.1145;-11.832;-0.4809
178674;-0.1758;0.2061;0.4904;0.1298;-15.649;-0.1832
178719;-0.1896;0.2280;0.4784;-0.1298;0.3969;-0.3435
178764;-0.2148;0.2260;0.4745;-0.2519;0.5802;-0.3740
178809;-0.1993;0.1950;0.4593;-0.3511;-0.6107;-0.5038
178854;-0.1994;0.1930;0.4749;-0.2748;-0.2137;-0.3206
178899;-0.2030;0.2003;0.4588;-0.0076;0.2595;-0.0382
178944;-0.2112;0.1956;0.4598;0.1145;0.1832;0.0840
178989;-0.2084;0.2067;0.4730;0.0763;0.3359;0.0763
179034;-0.2211;0.2073;0.4673;0.1603;0.3053;-0.0382
179079;-0.2216;0.1975;0.4641;0.2519;-0.2595;0.0382
179124;-0.2081;0.2053;0.4749;0.1298;0.0916;0.2366
179169;-0.2316;0.2016;0.4861;0.3206;0.8473;0.3740
179214;-0.2158;0.2021;0.4759;0.3740;0.1679;0.5420
179259;-0.2166;0.2105;0.4819;0.4809;0.6641;0.4198
179304;-0.2119;0.2241;0.4781;0.1450;-0.0687;0.0840
179349;-0.2178;0.2218;0.4767;-0.1603;-0.4504;-0.2366
179394;-0.2162;0.2133;0.4788;-0.3588;0.0840;-0.4656
179439;-0.2297;0.1959;0.4814;-0.5038;-0.2595;-0.6336
179484;-0.2179;0.1975;0.4724;-0.4962;-0.3893;-0.4962
179529;-0.2166;0.2028;0.4734;-0.2672;-0.0076;-0.5191
179574;-0.2125;0.1893;0.4726;0.0000;0.1298;-0.1374
179619;-0.2120;0.2000;0.4653;0.2290;0.3206;0.2214
179664;-0.1992;0.2157;0.4593;0.3435;0.3282;0.4351
179709;-0.1909;0.2147;0.4557;0.2519;0.2061;0.1145
179754;-0.2003;0.2122;0.4631;0.0992;-0.0687;0.0076
179799;-0.2064;0.1990;0.4844;0.0076;-0.1756;-0.1679
179844;-0.2166;0.2107;0.4722;0.0000;0.3130;-0.0229
179889;-0.2291;0.2078;0.4798;-0.0229;0.2748;0.1527
179934;-0.2261;0.2024;0.4679;0.0076;0.2672;0.0916
179979;-0.2310;0.2044;0.4734;-0.0382;0.0687;0.0687
180024;-0.2219;0.2023;0.4731;-0.0305;-0.3206;-0.0611
180069;-0.2148;0.2110;0.4710;-0.0840;0.0611;-0.1298
180114;-0.2254;0.2039;0.4728;-0.1069;0.2748;-0.0763
180159;-0.2085;0.2114;0.4668;-0.0458;-0.0382;-0.2061
180204;-0.2251;0.2069;0.4702;-0.0153;-0.0382;-0.1527
180249;-0.2212;0.2035;0.4878;0.0992;-0.5115;-0.0916
180294;-0.2106;0.1939;0.4805;0.0153;-0.0611;0.1298
180339;-0.2208;0.1958;0.4740;-0.0382;0.3130;0.1527
180384;-0.2117;0.2115;0.4725;-0.0916;0.1069;-0.0534
180429;-0.2115;0.2108;0.4727;-0.1374;-0.3053;-0.2137
180474;-0.2156;0.2133;0.4746;-0.1679;0.0992;-0.1603
180519;-0.2249;0.1917;0.4658;-0.2061;0.1527;-0.1145
180564;-0.2166;0.2034;0.4757;-0.1679;0.0687;0.0382
180609;-0.2242;0.2070;0.4623;-0.0076;-0.1298;-0.0382
180654;-0.2250;0.2001;0.4753;0.0534;0.0611;-0.1221
180699;-0.2387;0.2012;0.4767;0.0840;0.1069;-0.0153
180744;-0.2262;0.1968;0.4790;0.1145;-0.7252;0.0000
180789;-0.2206;0.2035;0.4764;0.1221;-0.3588;0.0840
180834;-0.2150;0.2086;0.4770;0.0687;0.3359;-0.0763
180879;-0.2291;0.2066;0.4753;-0.0305;0.0153;-0.3130
180924;-0.2241;0.2110;0.4791;-0.1069;-0.3893;-0.2901
180969;-0.2114;0.1996;0.4822;0.0076;0.1679;-0.2443
181014;-0.2286;0.1992;0.4691;0.0458;0.2672;-0.0916
181059;-0.2212;0.2036;0.4692;-0.0611;-0.4046;-0.0916
181104;-0.2227;0.2041;0.4712;-0.0916;-0.0382;-0.2290
181149;-0.2250;0.2072;0.4731;0.0305;0.2519;-0.1756
181194;-0.2216;0.1973;0.4678;0.1145;-0.1298;-0.0458
181239;-0.2311;0.2035;0.4744;0.1374;0.2137;0.1374
181284;-0.2219;0.2089;0.4726;0.0534;0.1756;0.0611
181329;-0.2347;0.2111;0.4668;-0.0305;0.0916;-0.1298
181374;-0.2292;0.2059;0.4723;-0.1069;-0.3511;-0.1374
181419;-0.2267;0.2049;0.4768;-0.1069;0.3130;-0.1756
181464;-0.2314;0.2071;0.4637;-0.0076;0.4962;-0.0305
181509;-0.2256;0.2055;0.4720;0.0534;-0.3511;-0.1069
181554;-0.2217;0.2023;0.4750;0.0000;0.2061;-0.0840
181599;-0.2246;0.2075;0.4773;-0.0534;-0.0611;-0.1603
181644;-0.2253;0.2006;0.4678;0.1298;0.0763;-0.0153
181689;-0.2277;0.2052;0.4697;0.0916;0.0687;0.0611
181734;-0.2252;0.2055;0.4759;0.0763;0.0076;0.0840
181779;-0.2294;0.2073;0.4676;-0.0076;-0.1145;0.1221
181824;-0.2193;0.2039;0.4823;0.0382;0.1221;0.0840
181869;-0.2222;0.2033;0.4761;0.0000;0.0840;0.0763
181914;-0.2419;0.2144;0.4716;0.0076;-0.0305;0.1756
181959;-0.2135;0.2048;0.4714;-0.0916;0.1221;0.0992
182004;-0.2289;0.2034;0.4585;-0.1756;0.3435;-0.0229
182049;-0.2296;0.2048;0.4736;-0.2443;-0.2977;-0.0153
182094;-0.2236;0.1990;0.4736;-0.1985;0.0458;-0.0611
182139;-0.2296;0.1973;0.4669;-0.1298;0.3282;-0.0153
182184;-0.2260;0.2035;0.4621;-0.0229;-0.1679;-0.0382
182229;-0.2294;0.2000;0.4813;-0.0534;0.1603;-0.0840
182274;-0.2294;0.2015;0.4747;0.0000;0.0229;-0.1450
182319;-0.2289;0.2070;0.4638;-0.0076;-0.3664;-0.0992
182364;-0.2186;0.2010;0.4759;-0.0382;0.2214;-0.0153
182409;-0.2233;0.2025;0.4715;-0.1221;0.1756;-0.1450
182454;-0.2225;0.2097;0.4640;0.0229;-0.0382;0.0229
182499;-0.2268;0.1984;0.4767;-0.1069;0.0000;-0.0992
182544;-0.2260;0.2088;0.4795;-0.0076;0.0992;-0.1221
182589;-0.2310;0.2058;0.4803;-0.0076;0.2214;-0.0382
182634;-0.2217;0.2070;0.4692;0.0305;-0.1298;-0.0916
182679;-0.2382;0.2098;0.4809;0.0153;0.2214;-0.0382
182724;-0.2288;0.2052;0.4834;-0.1374;-0.0153;0.0076
182769;-0.2217;0.2033;0.4776;-0.0076;0.1756;-0.0534
182814;-0.2314;0.2072;0.4678;0.0229;0.1450;0.0382
182859;-0.2319;0.1947;0.4817;-0.0840;0.0153;-0.0153
182904;-0.2271;0.2041;0.4720;-0.0382;0.1679;0.0611
182949;-0.2187;0.2008;0.4737;-0.0382;-0.0992;-0.0458
182994;-0.2296;0.2102;0.4739;0.0229;0.1756;-0.0534
183039;-0.2341;0.2091;0.4667;0.0305;-0.0076;-0.1527
183084;-0.2288;0.1995;0.4761;0.0916;-0.0153;-0.0534
183129;-0.2291;0.2041;0.4823;0.0611;-0.0763;-0.0534
183174;-0.2399;0.2008;0.4785;0.0534;0.1221;-0.0076
183219;-0.2350;0.2033;0.4857;-0.0840;-0.0229;-0.0382
183264;-0.2150;0.2020;0.4763;-0.1298;-0.1374;0.0229
183309;-0.2343;0.1978;0.4788;-0.0916;-0.2748;-0.1908
183354;-0.2289;0.2120;0.4791;-0.1679;-0.3664;-0.0229
183399;-0.2141;0.2013;0.4887;-0.1145;-0.0916;-0.0763
183444;-0.2318;0.2044;0.4708;-0.0992;0.1527;0.0458
183489;-0.2292;0.2016;0.4813;-0.0992;-0.3435;-0.1069
183534;-0.2225;0.1981;0.4737;-0.0611;0.3282;-0.0229
183579;-0.2314;0.1981;0.4708;-0.0534;-0.0916;-0.1069
183624;-0.2330;0.2015;0.4869;0.0305;-0.2137;-0.0229
183669;-0.2268;0.2005;0.4836;0.0382;0.1756;-0.0611
183714;-0.2373;0.2037;0.4780;-0.0076;0.0076;-0.0534
183759;-0.2289;0.1983;0.4790;-0.0305;-0.1603;0.0382
183804;-0.2274;0.2030;0.4761;0.0076;-0.2824;-0.0458
183849;-0.2286;0.2023;0.4841;-0.1374;0.0229;0.0534
183894;-0.2260;0.2037;0.4752;-0.0382;-0.2519;0.0229
183939;-0.2283;0.1999;0.4714;-0.1069;0.2901;-0.0305
183984;-0.2361;0.2039;0.4703;-0.0916;-0.2290;0.0000
184029;-0.2295;0.2038;0.4829;0.0382;0.0534;-0.0687
184074;-0.2255;0.2041;0.4839;0.0687;0.5115;0.0916
184119;-0.2244;0.2000;0.4824;0.0687;0.1985;-0.0840
184164;-0.2318;0.2048;0.4825;-0.0763;0.1679;-0.0153
184209;-0.2250;0.1945;0.4803;-0.0534;0.3053;-0.0229
184254;-0.2277;0.2093;0.4781;0.0611;0.4733;0.1450
184299;-0.2349;0.2099;0.4776;0.0992;0.1145;0.1145
184344;-0.2195;0.2028;0.4801;0.1069;-0.0458;0.0458
184389;-0.2244;0.1954;0.4866;0.1221;0.4504;-0.0305
184434;-0.2388;0.2078;0.4819;0.1221;-0.1756;-0.0992
184479;-0.2333;0.2133;0.4809;0.0000;0.0687;-0.0076
184524;-0.2288;0.2078;0.4897;-0.0687;0.0992;-0.1832
184569;-0.2394;0.1978;0.4797;-0.1298;0.0534;-0.0687
184614;-0.2188;0.2022;0.4917;0.0076;0.1221;-0.1679
184659;-0.2288;0.2034;0.4864;0.0076;0.0076;0.0534
184704;-0.2250;0.2029;0.4761;0.0000;0.0534;-0.0305
184749;-0.2335;0.2052;0.4819;0.0153;0.1069;-0.0687
184794;-0.2131;0.2006;0.4787;-0.0076;-0.1603;0.0229
184839;-0.2335;0.2039;0.4773;-0.0687;0.7634;-0.0992
184884;-0.2450;0.2080;0.4702;0.0153;0.0153;-0.0305
184929;-0.2257;0.2091;0.4747;-0.0076;-0.5267;0.0305
184974;-0.2253;0.2020;0.4807;-0.0840;0.6489;-0.1298
185019;-0.2361;0.2039;0.4686;-0.0840;0.2290;-0.1298
185064;-0.2270;0.2037;0.4844;0.0229;-0.4504;0.0382
185109;-0.2115;0.2059;0.4770;-0.0229;0.1679;-0.0153
185154;-0.2318;0.2044;0.4697;0.0305;0.2366;0.0687
185199;-0.2230;0.1983;0.4799;0.0153;-0.4504;0.0840
185244;-0.2248;0.1986;0.4785;0.1145;0.0992;0.0840
185289;-0.2346;0.2045;0.4819;0.1374;0.2672;-0.0382
185334;-0.2254;0.2005;0.4821;0.1527;-0.3282;0.0000
185379;-0.2186;0.2088;0.4838;0.0840;-0.0153;0.0229
185424;-0.2266;0.2007;0.4836;-0.0153;0.2137;-0.0611
185469;-0.2283;0.2025;0.4714;-0.0076;-0.0611;-0.0305
185514;-0.2297;0.2042;0.4753;-0.0076;-0.0534;-0.0534
185559;-0.2343;0.2016;0.4743;0.0153;0.3282;0.0153
185604;-0.2230;0.2131;0.4664;-0.0229;-0.2366;-0.0229
185649;-0.2218;0.2039;0.4850;0.0229;0.2519;0.1069
185694;-0.2295;0.2006;0.4751;-0.0916;0.0534;-0.1450
185739;-0.2314;0.2033;0.4742;-0.0076;-0.1603;0.0305
185784;-0.2279;0.2058;0.4899;-0.0840;-0.2137;-0.1679
185829;-0.2284;0.2027;0.4858;-0.1298;0.2901;-0.0611
185874;-0.2351;0.1995;0.4754;-0.1450;-0.2290;-0.1298
185919;-0.2301;0.2015;0.4795;-0.1298;-0.1298;-0.0229
185964;-0.2249;0.2059;0.4839;-0.0763;-0.0153;-0.0382
186009;-0.2225;0.2086;0.4740;-0.0992;-0.0229;0.0076
186054;-0.2323;0.2030;0.4729;-0.0305;-0.0916;-0.0229
186099;-0.2278;0.2090;0.4800;0.0229;-0.1832;0.0611
186144;-0.2240;0.1868;0.4757;-0.0076;0.1603;0.0992
186189;-0.2316;0.2025;0.4828;0.0000;-0.0687;-0.0076
186234;-0.2208;0.2051;0.4858;-0.0305;0.0840;0.0229
186279;-0.2266;0.2057;0.4745;0.0382;0.1527;-0.0763
186324;-0.2195;0.2001;0.4770;-0.0305;-0.2214;0.1069
186369;-0.2185;0.2068;0.4834;-0.0840;0.0458;0.0153
186414;-0.2299;0.1995;0.4759;-0.0153;0.3359;0.0916
186459;-0.2305;0.2001;0.4763;-0.0382;-0.0763;0.0611
186504;-0.2217;0.1995;0.4827;-0.0992;0.0840;0.0000
186549;-0.2237;0.2013;0.4825;-0.0763;0.2214;-0.0763
186594;-0.2218;0.1994;0.4789;-0.0763;0.1374;-0.0153
186639;-0.2259;0.2015;0.4776;-0.0153;0.0229;-0.0076
186684;-0.2222;0.1990;0.4817;0.1985;0.2137;-0.1145
186729;-0.2091;0.2046;0.4841;0.0458;0.0153;-0.0382
186774;-0.2286;0.2088;0.4888;-0.0076;0.0076;0.1527
186819;-0.2130;0.2124;0.4796;-0.0687;0.1603;-0.0534
186864;-0.2274;0.2078;0.4720;-0.0687;0.6031;-0.0458
186909;-0.2265;0.2027;0.4826;-0.0153;-0.3359;0.0763
186954;-0.2205;0.1968;0.4875;0.0534;0.2061;0.1298
186999;-0.2272;0.2020;0.4773;-0.0382;0.5420;0.0916
187044;-0.2325;0.2137;0.4806;-0.0534;-0.1603;-0.0153
187089;-0.2232;0.2001;0.4759;-0.0458;-0.0687;-0.0840
187134;-0.2316;0.1985;0.4751;-0.1145;0.4275;-0.0458
187179;-0.2322;0.2035;0.4731;-0.0229;0.3206;-0.0305
187224;-0.2221;0.2020;0.4656;0.0687;-0.0916;0.0458
187269;-0.2286;0.2083;0.4830;0.0458;0.0229;-0.0229
187314;-0.2140;0.2101;0.4815;-0.0229;0.2595;-0.0458
187359;-0.2296;0.2073;0.4776;0.0382;0.1679;0.0382
187404;-0.2198;0.2033;0.4747;-0.0076;0.0000;-0.0534
187449;-0.2372;0.1983;0.4784;-0.0382;0.1908;0.1145
187494;-0.2253;0.1961;0.4774;0.1450;-0.0916;0.0229
187539;-0.2195;0.2049;0.4782;0.0840;0.1527;0.0611
187584;-0.2247;0.2050;0.4839;0.0611;-0.0229;0.0000
187629;-0.2182;0.1934;0.4780;0.2595;-0.6718;0.0611
187674;-0.2206;0.2159;0.4654;0.0916;-0.9924;0.2214
187719;-0.1880;0.2048;0.4736;-0.0840;-12.595;-0.3053
187764;-0.2059;0.2039;0.4781;0.0534;0.3588;0.1298
187809;-0.2173;0.1857;0.4717;-0.1145;0.8244;0.7023
187854;-0.2110;0.1860;0.4703;-0.1450;11.450;0.9237
187899;-0.2158;0.2208;0.4781;0.0534;24.962;0.5878
187944;-0.2281;0.2225;0.4577;-0.0305;17.405;0.4122
187989;-0.2189;0.2286;0.4549;-0.1450;0.7634;0.1679
188034;-0.1998;0.2068;0.4726;0.0305;10.000;0.0458
188079;-0.1999;0.1985;0.4628;0.2519;13.893;0.1832
188124;-0.2618;0.1690;0.4740;0.7863;0.0611;0.5496
188169;-0.2017;0.2145;0.4388;10.076;-60.153;13.206
188214;-0.1384;0.2012;0.5273;0.7557;-30.153;0.6031
188259;-0.2031;0.2179;0.4635;0.6947;24.046;0.6947
188304;-0.2176;0.2127;0.4452;0.4733;-18.168;0.3893
188349;-0.1982;0.2164;0.4962;0.6794;0.3664;0.5038
188394;-0.1912;0.2037;0.4476;0.5802;0.9160;0.3282
188439;-0.2206;0.2035;0.4686;0.5954;0.1756;0.1527
188484;-0.2050;0.2097;0.4421;0.6031;-15.878;0.3740
188529;-0.1909;0.2231;0.4859;0.3969;-0.9847;0.1832
188574;-0.1856;0.2460;0.4398;-0.0687;0.5267;0.3053
188619;-0.1611;0.2302;0.4531;-0.4122;0.6031;-0.3588
188664;-0.1532;0.2202;0.4405;-0.3817;15.725;-0.6641
188709;-0.1661;0.2055;0.4363;-0.4656;11.756;-10.305
188754;-0.1880;0.2364;0.4432;-0.3435;0.3588;-0.8626
188799;-0.1694;0.1914;0.4357;-0.4885;-0.8550;-12.290
188844;-0.1594;0.1746;0.4497;-0.6183;0.5420;-14.809
188889;-0.2137;0.2009;0.4406;-0.0534;0.9695;-11.145
188934;-0.2105;0.1745;0.4447;0.6336;-16.565;-0.1908
188979;-0.1792;0.1918;0.4633;10.534;-14.351;0.5725
189024;-0.1876;0.2310;0.4516;0.7176;0.5344;0.2824
189069;-0.2036;0.2426;0.4438;0.2901;0.8244;0.1527
189114;-0.2113;0.2197;0.4530;-0.0305;-0.1679;-0.2824
189159;-0.1843;0.1979;0.4380;0.0458;-0.6565;0.3130
189204;-0.1750;0.1969;0.4613;0.1985;0.0992;0.2595
189249;-0.1903;0.2192;0.4252;0.0534;0.5420;0.3053
189294;-0.1889;0.2330;0.4304;-0.0687;-0.4351;-0.0916
189339;-0.1894;0.1878;0.4368;0.0458;-0.4885;-0.2290
189384;-0.1838;0.2027;0.4277;0.1298;-10.153;0.0992
189429;-0.1882;0.2000;0.4295;0.2137;-0.7252;0.6489
189474;-0.1429;0.2100;0.4206;0.3740;-0.5802;11.527
189519;-0.1660;0.2130;0.4277;0.4962;13.511;11.450
189564;-0.1647;0.2299;0.4050;0.1145;0.5420;0.8473
189609;-0.1671;0.2368;0.4131;-0.0076;-0.4275;0.3664
189654;-0.1453;0.2122;0.4180;-0.0382;0.1221;-0.0458
189699;-0.1626;0.2064;0.4207;0.0916;0.6794;-0.2443
189744;-0.1744;0.2102;0.4237;0.0229;0.1679;-0.0763
189789;-0.1733;0.2110;0.4348;0.1985;-0.2290;0.0687
189834;-0.1534;0.2165;0.4353;0.2748;0.0076;0.2366
189879;-0.1707;0.2238;0.4258;0.0229;0.5496;0.0840
189924;-0.1655;0.2124;0.4234;-0.0229;0.0153;-0.0153
189969;-0.1722;0.2107;0.4365;-0.0534;-0.1985;0.0840
190014;-0.1594;0.2153;0.4385;0.0229;0.0076;0.1450
190059;-0.1761;0.2111;0.4291;-0.0534;0.2214;0.0840
190104;-0.1741;0.2145;0.4202;-0.1069;-0.1908;0.0611
190149;-0.1490;0.2031;0.4251;0.0534;-0.4275;0.4504
190194;-0.1407;0.2161;0.4343;0.0992;0.5267;0.2443
190239;-0.1684;0.2199;0.4013;0.0382;0.6718;0.0534
190284;-0.1510;0.2092;0.4196;-0.0763;-0.7710;-0.0153
190329;-0.1508;0.2225;0.4326;0.0611;0.1069;-0.0153
190374;-0.1548;0.2152;0.4170;0.1069;0.6870;0.1298
190419;-0.1581;0.2105;0.4180;0.2061;0.0611;0.1679
190464;-0.1589;0.2204;0.4183;0.0534;0.1756;0.1221
190509;-0.1480;0.2153;0.4267;0.0153;0.2901;0.0305
190554;-0.1622;0.2123;0.4341;0.0458;0.2748;0.0305
190599;-0.1576;0.2222;0.4287;0.0763;0.0687;0.0840
190644;-0.1470;0.2135;0.4257;0.1145;-0.0153;0.0992
190689;-0.1591;0.2188;0.4198;0.0992;0.1908;0.0076
190734;-0.1638;0.2145;0.4345;0.0687;-0.1069;-0.0916
190779;-0.1499;0.2141;0.4198;-0.0458;-0.1069;-0.0458
190824;-0.1572;0.2196;0.4176;-0.0763;0.2214;-0.1069
190869;-0.1686;0.2105;0.4193;-0.0763;-0.1145;-0.1374
190914;-0.1470;0.2047;0.4255;-0.0458;-0.2901;-0.0611
190959;-0.1520;0.2272;0.4214;-0.0611;0.1679;-0.0382
191004;-0.1521;0.2155;0.4167;-0.1679;0.1985;-0.1527
191049;-0.1525;0.2073;0.4269;-0.1145;-0.2137;-0.1985
191094;-0.1567;0.2222;0.4371;-0.0305;-0.0305;0.0687
191139;-0.1550;0.2103;0.4247;-0.0076;0.0000;0.0687
191184;-0.1570;0.2148;0.4196;-0.0458;0.1298;0.0611
191229;-0.1574;0.2110;0.4224;0.0382;-0.0305;0.0305
191274;-0.1572;0.2124;0.4287;0.0000;0.2290;-0.0076
191319;-0.1626;0.2154;0.4264;-0.0382;0.1603;0.0611
191364;-0.1439;0.2169;0.4221;-0.0382;-0.0458;-0.0229
191409;-0.1585;0.2147;0.4216;-0.0229;0.3435;0.0305
191454;-0.1542;0.2144;0.4218;-0.1527;-0.1069;-0.0840
191499;-0.1525;0.2113;0.4168;-0.0687;0.1069;-0.0534
191544;-0.1525;0.2012;0.4273;0.0534;0.1756;-0.0153
191589;-0.1561;0.2028;0.4263;0.1527;-0.0229;0.0458
191634;-0.1569;0.2172;0.4303;-0.0458;0.1985;-0.0534
191679;-0.1577;0.2217;0.4119;0.0840;0.1374;-0.1069
191724;-0.1608;0.2120;0.4206;-0.0687;0.1145;-0.0992
191769;-0.1530;0.2134;0.4200;-0.0534;0.0611;-0.1450
191814;-0.1547;0.2133;0.4238;-0.0458;0.0992;-0.0229
191859;-0.1523;0.2121;0.4245;-0.1145;0.1756;0.0611
191904;-0.1539;0.2096;0.4227;0.0458;0.1374;0.0992
191949;-0.1462;0.2084;0.4335;0.0992;-0.1603;0.1908
191994;-0.1536;0.2083;0.4203;0.0611;0.3893;0.0534
192039;-0.1664;0.2055;0.4245;0.0534;-0.0305;0.1374
192084;-0.1541;0.2183;0.4237;0.0000;-0.1832;0.2672
192129;-0.1537;0.2222;0.4175;-0.2214;0.4580;-0.0382
192174;-0.1660;0.2180;0.4168;-0.1603;0.3435;-0.0382
192219;-0.1588;0.2105;0.4409;-0.1298;-0.3053;-0.0305
192264;-0.1407;0.2072;0.4115;-0.0229;0.2137;0.0076
192309;-0.1619;0.2100;0.4250;0.0076;0.0840;-0.1374
192354;-0.1417;0.2146;0.4227;-0.1221;-0.0229;-0.0687
192399;-0.1439;0.2134;0.4208;-0.0153;0.1832;-0.1221
192444;-0.1619;0.2105;0.4260;0.0992;0.0382;-0.0763
192489;-0.1478;0.2150;0.4233;0.0305;-0.1679;0.0534
192534;-0.1515;0.2215;0.4265;0.0458;0.1603;-0.0305
192579;-0.1541;0.2091;0.4221;0.0229;0.2901;-0.0840
192624;-0.1562;0.2102;0.4216;0.0687;-0.4809;0.0458
192669;-0.1405;0.2041;0.4272;0.0534;-0.1145;0.0076
192714;-0.1591;0.2151;0.4303;0.0153;0.4504;-0.0687
192759;-0.1572;0.2258;0.4239;0.0611;-0.0458;0.0458
192804;-0.1431;0.2142;0.4339;-0.0076;-0.1450;-0.0840
192849;-0.1588;0.2102;0.4353;-0.0305;0.2366;-0.1374
192894;-0.1519;0.2095;0.4231;0.0382;-0.1679;-0.1145
192939;-0.1405;0.2034;0.4375;-0.0305;-0.0153;-0.0458
192984;-0.1467;0.2139;0.4236;0.0458;0.0992;-0.0916
193029;-0.1581;0.2206;0.4157;0.0305;-0.1450;-0.0992
193074;-0.1602;0.2196;0.4237;-0.0229;0.1374;-0.0153
193119;-0.1458;0.2193;0.4250;-0.0153;0.0458;0.0382
193164;-0.1529;0.2124;0.4269;-0.0611;0.0992;0.0305
193209;-0.1503;0.2221;0.4214;0.0000;0.0000;0.0305
193254;-0.1492;0.2233;0.4296;0.0687;0.0458;0.0611
193299;-0.1584;0.2137;0.4220;0.0000;0.0840;0.0534
193344;-0.1599;0.2131;0.4255;-0.0611;0.1145;-0.0382
193389;-0.1644;0.2084;0.4200;-0.0840;-0.0534;-0.0229
193434;-0.1518;0.2108;0.4281;-0.1221;0.0763;-0.0458
193479;-0.1514;0.2146;0.4198;-0.1069;0.0687;-0.0840
193524;-0.1572;0.2164;0.4253;-0.0916;0.2443;-0.1374
193569;-0.1434;0.2124;0.4165;-0.0076;-0.0076;-0.1298
193614;-0.1556;0.2126;0.4281;0.0076;-0.0229;-0.0534
193659;-0.1419;0.2051;0.4232;0.0611;-0.1450;0.0458
193704;-0.1575;0.2100;0.4288;-0.0763;-0.0382;0.0534
193749;-0.1458;0.2172;0.4308;-0.0305;-0.0534;0.1298
193794;-0.1451;0.2176;0.4212;0.0611;0.2137;0.0534
193839;-0.1677;0.2142;0.4221;0.0382;0.1374;0.0153
193884;-0.1549;0.2226;0.4178;-0.1221;-0.3435;0.0153
193929;-0.1500;0.2103;0.4302;-0.0229;0.3588;-0.1221
193974;-0.1567;0.2211;0.4124;-0.0229;0.0916;0.0076
194019;-0.1500;0.2303;0.4248;-0.0305;-0.3588;0.0000
194064;-0.1523;0.2204;0.4249;-0.0611;0.2977;-0.1450
194109;-0.1516;0.2082;0.4346;-0.1069;0.1832;-0.0229
194154;-0.1477;0.2153;0.4305;0.0305;-0.4580;0.0534
194199;-0.1471;0.2155;0.4333;-0.0916;0.0382;0.0458
194244;-0.1545;0.2102;0.4291;-0.1450;0.2519;0.0687
194289;-0.1489;0.2131;0.4135;-0.0153;0.2366;0.0763
194334;-0.1556;0.2108;0.4172;-0.0382;-0.1221;0.0534
194379;-0.1528;0.2205;0.4230;0.0534;0.0992;-0.1298
194424;-0.1478;0.2073;0.4204;0.1298;0.0992;-0.1756
194469;-0.1675;0.2257;0.4237;0.0382;0.2214;-0.0992
194514;-0.1492;0.2140;0.4297;0.1145;-0.2366;-0.0611
194559;-0.1407;0.2222;0.4306;0.1069;0.1756;-0.1450
194604;-0.1682;0.2200;0.4283;-0.0916;0.4122;0.0305
194649;-0.1425;0.2166;0.4177;-0.0382;-0.1450;0.1908
194694;-0.1469;0.2096;0.4269;0.0534;0.2901;0.0000
194739;-0.1542;0.2186;0.4274;-0.0458;0.1527;0.0992
194784;-0.1541;0.2178;0.4245;0.0000;0.0763;0.1145
194829;-0.1591;0.2140;0.4244;0.0687;0.2214;0.0153
194874;-0.1570;0.2163;0.4357;0.0992;0.0076;0.0229
194919;-0.1539;0.2127;0.4314;0.1145;-0.1756;0.0229
194964;-0.1483;0.2190;0.4180;-0.0076;0.4427;-0.0153
195009;-0.1508;0.2239;0.4182;0.0076;-0.1603;-0.0840
195054;-0.1447;0.2116;0.4321;-0.0229;-0.0611;-0.0076
195099;-0.1511;0.2166;0.4297;-0.0382;0.3740;0.0153
195144;-0.1485;0.2113;0.4197;-0.0153;-0.1603;0.0458
195189;-0.1552;0.2090;0.4242;0.0611;0.0153;-0.0534
195234;-0.1624;0.2161;0.4113;-0.0153;0.0076;0.0076
195279;-0.1459;0.2136;0.4192;0.0382;-0.0076;-0.0305
195324;-0.1507;0.2157;0.4252;-0.0458;0.1374;-0.0840
195369;-0.1496;0.2088;0.4265;-0.0153;0.0916;0.0687
195414;-0.1503;0.2214;0.4240;-0.0076;0.0153;0.0000
195459;-0.1458;0.2075;0.4108;0.0687;0.2214;0.0382
195504;-0.1481;0.2111;0.4200;0.0992;-0.2824;0.0305
195549;-0.1421;0.2161;0.4324;0.0382;0.1374;-0.0382
195594;-0.1562;0.2133;0.4217;0.0076;0.2519;0.0534
195639;-0.1492;0.2137;0.4245;0.0076;-0.2901;0.0534
195684;-0.1462;0.2150;0.4253;0.0229;0.1145;0.0611
195729;-0.1431;0.2171;0.4245;-0.0076;0.3130;-0.0916
195774;-0.1534;0.2111;0.4299;-0.0611;-0.1527;-0.0763
195819;-0.1442;0.2059;0.4305;0.0305;-0.0840;-0.1527
195864;-0.1473;0.2178;0.4230;0.0076;0.3130;-0.0687
195909;-0.1570;0.2211;0.4283;0.0076;-0.0687;-0.2137
195999;-0.1460;0.2121;0.4291;-0.0229;0.0611;-0.1527
196044;-0.1418;0.2203;0.4264;-0.0382;0.1908;-0.0458
196089;-0.1526;0.2198;0.4181;-0.0305;0.1756;-0.0458
196134;-0.1462;0.2243;0.4265;0.0382;-0.1298;-0.0229
196179;-0.1478;0.2116;0.4302;0.0382;0.2290;-0.0382
196224;-0.1560;0.2072;0.4213;0.1221;0.1985;0.1298
196269;-0.1500;0.2246;0.4335;0.0840;-0.1221;0.1603
196314;-0.1506;0.2199;0.4313;0.1145;0.1374;0.0611
196359;-0.1505;0.2187;0.4294;0.0763;0.0382;0.0382
196404;-0.1527;0.2134;0.4297;-0.0382;-0.0229;0.1679
196449;-0.1530;0.2161;0.4353;-0.0611;-0.0076;-0.0611
196494;-0.1591;0.2175;0.4313;-0.1069;-0.2061;-0.0763
196539;-0.1390;0.2110;0.4333;-0.1908;0.0992;-0.0687
196584;-0.1514;0.2136;0.4097;-0.1298;0.3969;-0.0153
196629;-0.1528;0.2130;0.4230;-0.0916;-0.4580;-0.1450
196674;-0.1320;0.2144;0.4193;-0.0305;0.2443;-0.1221
196719;-0.1584;0.2174;0.4187;0.0382;0.2901;-0.0153
196764;-0.1357;0.2203;0.4209;-0.0382;-0.3893;-0.0458
196809;-0.1358;0.2202;0.4278;-0.1145;0.3817;0.0916
196854;-0.1473;0.2174;0.4229;-0.0153;0.1679;0.0763
196899;-0.1503;0.2178;0.4308;0.0534;0.1374;0.3130
196944;-0.1559;0.2236;0.4339;0.0534;0.0763;0.2214
196989;-0.1448;0.2104;0.4262;0.0382;0.2366;0.1145
197034;-0.1539;0.2105;0.4299;0.0305;0.1298;0.1527
197079;-0.1497;0.2175;0.4321;-0.0763;-0.2214;0.0000
197124;-0.1423;0.2039;0.4251;-0.0076;0.2672;-0.1069
197169;-0.1474;0.2120;0.4233;0.0153;-0.0534;-0.0458
197214;-0.1442;0.2135;0.4253;0.0000;-0.1985;-0.0229
197259;-0.1358;0.2148;0.4314;0.0076;0.0153;0.0076
197304;-0.1450;0.2196;0.4288;0.0305;-0.2595;-0.1069
197349;-0.1354;0.2238;0.4242;-0.0153;-0.1985;-0.1221
197394;-0.1536;0.2189;0.4258;-0.1221;0.0382;0.0305
197439;-0.1432;0.2208;0.4203;-0.0992;-0.3206;-0.0611
197484;-0.1420;0.2175;0.4197;-0.1756;0.1145;0.0229
197529;-0.1394;0.2130;0.4265;-0.1145;-0.2824;-0.1374
197574;-0.1370;0.2058;0.4243;-0.1145;0.1221;0.0687
197619;-0.1392;0.2098;0.4193;0.0382;-0.0153;0.0382
197664;-0.1382;0.2133;0.4253;0.0229;-0.0763;-0.0305
197709;-0.1337;0.2144;0.4304;0.1069;0.2366;0.1069
197754;-0.1345;0.2103;0.4139;0.1603;0.3206;-0.0305
197799;-0.1459;0.2186;0.4128;0.0916;0.0611;0.1298
197844;-0.1357;0.2205;0.4207;0.1679;0.0840;0.0229
197889;-0.1415;0.2177;0.4269;0.0916;0.4198;0.0534
197934;-0.1406;0.2158;0.4189;0.0840;0.1450;-0.0687
197979;-0.1440;0.2125;0.4228;0.1756;0.1527;0.0611
198024;-0.1416;0.2188;0.4303;0.0076;0.0229;0.0076
198069;-0.1385;0.2258;0.4274;-0.0763;-0.1985;-0.1985
198114;-0.1476;0.2129;0.4266;-0.1603;0.3893;0.0000
198159;-0.1358;0.2178;0.4313;-0.0687;-0.1374;-0.0305
198204;-0.1368;0.2138;0.4158;-0.0305;0.0305;0.0076
198249;-0.1346;0.2132;0.4176;-0.0076;0.0840;0.0840
198294;-0.1451;0.2182;0.4195;0.1221;-0.2901;0.0153
198339;-0.1466;0.2177;0.4182;0.0763;0.2748;0.0153
198384;-0.1426;0.2172;0.4302;-0.0076;0.1374;-0.0992
198429;-0.1515;0.2211;0.4211;0.0229;0.0763;0.0458
198474;-0.1328;0.2191;0.4209;-0.0534;0.1832;-0.0611
198519;-0.1531;0.2083;0.4284;0.0611;0.1985;-0.0840
198564;-0.1368;0.2150;0.4248;-0.0458;-0.3435;-0.0458
198609;-0.1409;0.2127;0.4281;-0.0611;0.3435;-0.0611
198654;-0.1487;0.2118;0.4206;-0.0229;0.1832;-0.0458
198699;-0.1394;0.2199;0.4198;0.1069;-0.1298;-0.0076
198744;-0.1384;0.2161;0.4321;0.0000;0.0000;-0.0305
198789;-0.1426;0.2222;0.4209;-0.0076;0.1145;-0.0458
198834;-0.1354;0.2109;0.4236;-0.0992;0.2214;-0.0840
198879;-0.1370;0.2062;0.4236;-0.0229;-0.1527;-0.0229
198924;-0.1293;0.2120;0.4239;0.1679;0.1374;-0.1374
198969;-0.1425;0.2188;0.4204;0.1298;0.2137;0.0382
199014;-0.1434;0.2204;0.4086;0.1145;-0.2672;0.0840
199059;-0.1338;0.2205;0.4241;0.0305;-0.1069;-0.0229
199104;-0.1443;0.2176;0.4186;-0.0153;0.4351;0.0000
199149;-0.1473;0.2095;0.4168;0.0305;-0.2977;0.0000
199194;-0.1357;0.2191;0.4238;0.0916;-0.0153;0.1069
199239;-0.1395;0.2228;0.4130;-0.0458;0.3053;-0.1298
199284;-0.1428;0.2153;0.4191;-0.0992;0.0916;-0.0687
199329;-0.1395;0.2114;0.4299;-0.1221;-0.1298;0.0153
199374;-0.1359;0.2116;0.4241;-0.2443;-0.1450;-0.0153
199419;-0.1425;0.2157;0.4148;-0.1069;0.1069;0.0687
199464;-0.1432;0.2174;0.4223;-0.0840;-0.1985;-0.0076
199509;-0.1375;0.2155;0.4219;-0.0382;0.4046;-0.0229
199554;-0.1436;0.2120;0.4250;0.0153;0.2443;0.0153
199599;-0.1429;0.2247;0.4203;0.0382;-0.3817;0.0076
199644;-0.1314;0.2227;0.4287;0.0534;0.3206;0.0076
199689;-0.1367;0.2122;0.4223;-0.0076;-0.2061;-0.0458
199734;-0.1454;0.2194;0.4306;-0.0305;-0.1756;0.0000
199779;-0.1413;0.2202;0.4142;-0.0153;-0.0153;-0.0458
199824;-0.1471;0.2108;0.4394;-0.0534;-0.2061;-0.0382
199869;-0.1301;0.2119;0.4204;-0.0840;-0.1527;-0.0229
199914;-0.1434;0.2201;0.4174;-0.0534;0.3130;-0.0382
199959;-0.1468;0.2158;0.4219;-0.0763;-0.1527;-0.0687
200004;-0.1384;0.2152;0.4166;-0.0153;-0.1145;0.0382
200049;-0.1404;0.2145;0.4186;-0.0458;0.1221;-0.0763
200094;-0.1394;0.2148;0.4101;-0.0229;-0.0763;0.0305
200139;-0.1339;0.2039;0.4227;0.0611;0.1145;-0.0153
200184;-0.1406;0.2144;0.4183;0.1221;0.1756;0.1374
200229;-0.1375;0.2164;0.4178;0.2672;-0.4122;0.0840
200274;-0.1416;0.2131;0.4258;0.0992;0.0916;0.2061
200319;-0.1298;0.2180;0.4121;0.0916;0.0229;0.1145
200364;-0.1376;0.2185;0.4162;0.1603;-0.0840;-0.0305
200409;-0.1279;0.2125;0.4088;0.0763;0.0916;0.0305
200454;-0.1364;0.2107;0.4190;0.0840;-0.0076;-0.0458
200499;-0.1373;0.2149;0.4134;0.0916;0.0992;0.1450
200544;-0.1321;0.2233;0.4084;0.1679;-0.0840;-0.0153
200589;-0.1389;0.2170;0.4086;0.0000;0.1221;-0.0992
200634;-0.1343;0.2229;0.4104;0.0076;0.0992;0.0458
200679;-0.1412;0.2103;0.4037;-0.0382;0.1603;0.0382
200724;-0.1237;0.2035;0.4019;0.0076;0.1603;0.2366
200769;-0.1257;0.2022;0.4004;0.3053;0.0687;0.2672
200814;-0.1326;0.1647;0.3857;0.4046;-0.1450;0.0382
200859;-0.1402;0.2304;0.3835;0.7634;-16.794;0.8702
200904;-0.0995;0.2315;0.4173;12.061;-10.153;0.5496
200949;-0.1406;0.2183;0.3900;13.740;18.397;0.6336
200994;-0.1295;0.2080;0.3856;10.611;-11.832;0.4351
201039;-0.1206;0.2136;0.4306;11.450;-0.8015;0.5191
201084;-0.0993;0.2459;0.3957;0.9618;0.2672;0.6489
201129;-0.1163;0.2152;0.3915;0.5420;-0.4198;0.1145
201174;-0.1021;0.2111;0.4031;0.4656;-0.8626;0.1603
201219;-0.1057;0.2351;0.3917;0.2824;-0.7557;0.2672
201264;-0.0972;0.2268;0.3968;-0.0763;0.0916;0.2366
201309;-0.1017;0.2255;0.3809;-0.1985;-0.0382;0.2672
201354;-0.1042;0.2077;0.3832;-0.4122;-0.3969;0.1450
201399;-0.1016;0.2059;0.3619;-0.2901;-0.1069;0.4580
201444;-0.0888;0.2118;0.3753;-0.2214;-0.4656;0.2366
201489;-0.1083;0.2354;0.3641;-0.2366;0.2672;0.4733
201534;-0.0872;0.2457;0.3627;-0.5038;-0.1832;-0.0534
201579;-0.0903;0.2159;0.3561;-0.6183;0.1221;-0.3511
201624;-0.0741;0.2186;0.3719;-0.6031;-0.2214;-0.2595
201669;-0.0820;0.2169;0.3739;-0.5954;0.1679;-0.2290
201714;-0.0797;0.2208;0.3611;-0.5496;0.5954;-0.0534
201759;-0.0977;0.2285;0.3608;-0.3435;0.2137;-0.0840
201804;-0.0875;0.2292;0.3666;-0.2214;-0.2595;-0.0076
201849;-0.0881;0.2151;0.3800;-0.1527;-0.1832;-0.1527
201894;-0.0898;0.2133;0.3750;0.0763;0.5878;0.1069
201939;-0.0956;0.2221;0.3890;0.0992;0.1374;0.1145
201984;-0.0936;0.2137;0.3846;0.0458;0.1069;0.0916
202029;-0.1001;0.2237;0.3974;0.0916;-0.0382;0.1221
202074;-0.0963;0.2088;0.3897;0.0611;-0.0840;0.1756
202119;-0.0981;0.2160;0.3972;0.0611;0.4580;0.0992
202164;-0.1007;0.2121;0.3957;0.0763;-0.0840;0.0763
202209;-0.0923;0.2190;0.4068;0.0840;-0.4809;0.0534
202254;-0.0889;0.2100;0.3959;0.0229;0.4275;0.0687
202299;-0.0972;0.2172;0.3934;0.0076;0.0229;0.0229
202344;-0.0905;0.2182;0.3928;-0.0687;0.0611;0.1069
202389;-0.0908;0.2172;0.3801;-0.1527;-0.0229;-0.1679
202434;-0.0991;0.2188;0.3935;-0.0382;0.3053;0.0000
202479;-0.0788;0.2047;0.3878;-0.1679;0.0229;-0.1908
202524;-0.0872;0.2144;0.3772;-0.1298;0.4733;-0.0687
202569;-0.0875;0.2155;0.3853;-0.0763;-0.4580;-0.0382
202614;-0.0855;0.2094;0.3916;0.0382;-0.1450;-0.0763
202659;-0.1002;0.2305;0.3942;0.0840;0.3740;-0.0611
202704;-0.0901;0.2207;0.3922;0.0840;0.0840;0.0076
202749;-0.0840;0.2073;0.3912;0.0153;-0.3282;-0.0382
202794;-0.0833;0.2122;0.4092;-0.0229;0.2519;-0.0076
202839;-0.0939;0.2147;0.3801;0.0076;0.0687;0.0305
202884;-0.0926;0.2228;0.3985;-0.0534;-0.0687;-0.0458
202929;-0.0840;0.2219;0.3965;-0.0687;-0.0305;-0.0687
202974;-0.0941;0.2111;0.3913;-0.0916;0.1145;-0.0763
203019;-0.0859;0.2201;0.3777;-0.0916;-0.0992;-0.0305
203064;-0.0918;0.2166;0.3882;-0.1069;0.1069;-0.0305
203109;-0.0895;0.2174;0.3772;0.0076;0.0611;-0.0305
203154;-0.1005;0.2173;0.3820;-0.0229;0.1374;-0.0687
203199;-0.0859;0.2193;0.3819;0.0076;-0.0382;-0.0305
203244;-0.0925;0.2219;0.3895;-0.0534;0.4351;0.0153
203289;-0.0910;0.2127;0.3858;-0.1374;0.2290;0.0076
203334;-0.0826;0.2152;0.3887;-0.0916;0.0916;0.0840
203379;-0.0911;0.2121;0.3906;-0.0611;0.2595;0.1908
203424;-0.0918;0.2151;0.3848;0.0458;0.0534;0.0992
203469;-0.0869;0.2240;0.3989;0.0153;-0.0611;0.0534
203514;-0.0905;0.2228;0.3855;0.0305;0.1985;0.0763
203559;-0.0913;0.2160;0.3970;0.0000;-0.0687;-0.0076
203604;-0.0829;0.2084;0.3952;-0.0458;-0.1298;-0.1298
203649;-0.0841;0.2264;0.4014;-0.0916;-0.0305;-0.0916
203694;-0.0847;0.2155;0.3927;-0.2214;-0.0840;-0.1603
203739;-0.0886;0.2223;0.3915;-0.1450;0.0992;-0.0992
203784;-0.0931;0.2223;0.4000;-0.0916;0.0916;-0.0763
203829;-0.0867;0.2153;0.3916;-0.2290;0.0153;-0.1298
203874;-0.0865;0.2246;0.3982;-0.0458;0.2519;-0.0534
203919;-0.0809;0.2071;0.3934;-0.0763;0.2672;-0.0382
203964;-0.0862;0.2258;0.3876;-0.1069;0.5344;0.1985
204009;-0.0949;0.2222;0.3961;-0.1374;0.2519;0.0076
204054;-0.0913;0.2257;0.3890;-0.1145;0.3664;0.0153
204099;-0.0894;0.2218;0.3949;-0.0458;0.2137;0.0992
204144;-0.0863;0.2117;0.4074;0.0000;0.2137;0.0229
204189;-0.0927;0.2162;0.3980;-0.0229;0.5191;0.0611
204234;-0.1006;0.2199;0.4029;0.1069;-0.2519;-0.0305
204279;-0.0815;0.2290;0.4097;0.1298;-0.1527;-0.0534
204324;-0.0910;0.2151;0.4067;0.0076;0.1603;-0.0534
204369;-0.0840;0.2166;0.3948;-0.0076;-0.0687;-0.0840
204414;-0.0923;0.2247;0.4005;0.0458;-0.1298;-0.0534
204459;-0.0816;0.2140;0.4018;0.0229;-0.3511;-0.0458
204504;-0.0842;0.2197;0.3938;-0.0382;-0.0534;-0.0229
204549;-0.0937;0.2227;0.3890;0.0687;0.1374;0.0305
204594;-0.0905;0.2092;0.3944;-0.0153;-0.1679;0.0611
204639;-0.0881;0.2175;0.3860;0.0076;0.2214;-0.0229
204684;-0.0870;0.2152;0.4011;0.0229;0.0000;-0.0840
204729;-0.0872;0.2066;0.3898;-0.0229;0.0840;-0.0763
204774;-0.0903;0.2264;0.4023;-0.1221;0.0000;0.0000
204819;-0.0862;0.2225;0.4040;-0.0458;-0.0305;-0.0687
204864;-0.0922;0.2247;0.3983;-0.2214;0.2214;-0.0458
204909;-0.0838;0.2089;0.3967;-0.0992;0.0382;-0.0763
204954;-0.0810;0.2151;0.3971;-0.0305;0.0076;0.0687
204999;-0.0853;0.2130;0.3992;0.0382;0.1450;-0.0229
205044;-0.0911;0.2263;0.3884;0.2137;0.1298;0.0458
205089;-0.0824;0.2265;0.4007;0.1298;-0.4504;0.0305
205134;-0.0798;0.2221;0.4114;-0.0992;0.2672;-0.0687
205179;-0.1003;0.2196;0.3990;0.0458;-0.8397;0.0534
205224;-0.0413;0.2200;0.4397;-0.4122;-19.084;-0.0305
205269;-0.0767;0.2066;0.4168;-0.2672;21.985;0.3053
205314;-0.0882;0.2181;0.3889;-0.4656;0.1756;0.0153
205359;-0.0933;0.2075;0.3981;-0.3817;0.0611;0.3359
205404;-0.0826;0.2192;0.3885;-0.1603;-0.0534;0.2061
205449;-0.0930;0.2011;0.3924;-0.0076;-0.1985;-0.0305
205494;-0.0899;0.2324;0.4005;0.1298;0.2214;0.1298
205539;-0.0761;0.2142;0.3952;0.1298;0.1450;-0.2519
205584;-0.0892;0.2067;0.4148;0.1985;0.0687;-0.1221
205629;-0.0781;0.2186;0.4104;0.2901;-0.4656;-0.0229
205674;-0.0767;0.2229;0.4136;0.1374;0.4046;0.0076
205719;-0.0806;0.2180;0.4108;-0.0076;0.5344;-0.0305
205764;-0.0795;0.2230;0.4126;-0.1069;-0.2137;-0.0076
205809;-0.0680;0.2176;0.4170;-0.1221;0.0305;0.0153
205854;-0.0812;0.2090;0.4053;-0.1298;0.1298;-0.0840
205899;-0.0826;0.2054;0.4012;0.0000;-0.1679;-0.0458
205944;-0.0875;0.2169;0.3954;-0.0382;-0.1374;-0.0153
205989;-0.0790;0.2269;0.4067;-0.0840;-0.0458;-0.1527
206034;-0.0391;0.2431;0.3909;-0.7634;11.221;-0.3817
206079;-0.0793;0.2011;0.4340;-0.6947;58.473;-0.3893
206124;-0.1255;0.2145;0.3627;-0.2901;29.084;0.0076
206169;-0.1259;0.2081;0.4040;-0.0076;-17.099;0.1832
206214;-0.0364;0.2207;0.4317;0.1527;-11.603;0.1298
206259;-0.0906;0.2069;0.4092;0.1908;14.427;0.0534
206304;-0.1052;0.2174;0.3884;0.1145;-0.6031;0.3969
206349;-0.0705;0.2242;0.4198;0.1908;-13.053;0.1832
206394;-0.0607;0.2231;0.4075;-0.0611;0.4733;-0.0229
206439;-0.0803;0.2135;0.4205;-0.2443;22.519;-0.3206
206484;-0.0884;0.2384;0.3633;-0.3817;19.618;-0.3893
206529;-0.0960;0.1967;0.3994;0.0000;21.985;-0.2901
206574;-0.1120;0.1971;0.3887;0.6565;-0.2290;-0.0382
206619;-0.0671;0.2203;0.4313;0.5038;-10.229;-0.0687
206664;-0.0757;0.2166;0.4157;0.6031;22.137;0.2290
206709;-0.1014;0.2301;0.4042;0.1603;0.1527;-0.0153
206754;-0.0867;0.2172;0.4224;0.2443;0.4580;0.1679
206799;-0.0791;0.2253;0.4139;0.0534;-0.3740;-0.0076
206844;-0.0905;0.2124;0.4232;0.0305;-0.0611;0.1756
206889;-0.0911;0.2155;0.4217;-0.0916;-0.2214;0.1069
206934;-0.0953;0.2169;0.4097;-0.1527;-10.076;-0.0992
206979;-0.0812;0.2088;0.4111;-0.1756;-0.2214;-0.1527
207024;-0.1008;0.2131;0.3973;-0.2443;-0.2901;-0.1679
207069;-0.0815;0.2233;0.3976;-0.1450;-0.2824;-0.1374
207114;-0.0784;0.2198;0.4064;-0.1221;0.1756;-0.1527
207159;-0.0859;0.2189;0.3962;-0.0534;-0.2137;-0.0687
207204;-0.0724;0.2054;0.4178;0.0992;-0.1832;-0.1298
207249;-0.0735;0.2123;0.4043;0.0763;0.0000;0.0153
207294;-0.0845;0.2189;0.3999;0.0840;-0.3053;0.0611
207339;-0.0805;0.2173;0.4146;0.1603;-0.4275;0.0916
207384;-0.0761;0.2144;0.4048;0.0840;-0.2748;0.0916
207429;-0.0925;0.2213;0.3951;-0.0916;-0.0763;0.1221
207474;-0.0848;0.2127;0.4143;-0.0992;-0.0305;0.0229
207519;-0.0806;0.2072;0.4048;-0.0534;0.0382;0.0992
207564;-0.0914;0.2135;0.3926;0.0305;-0.1832;0.0153
207609;-0.1010;0.2144;0.3965;0.3206;-0.3817;0.0458
207654;-0.0966;0.2314;0.3595;0.4122;-25.038;0.1450
207699;-0.0428;0.2056;0.4449;0.0305;-19.313;-0.4962
